Date 	 Name 	 Face_left 	 Face_right 	 ID 	 Gender 	 Run 	 Trial 	 01combination 	 02face_meaning_1st 	 03face_meaning_2nd 	 04intention_1st 	 05outcome_1st 	 06intention_2nd 	 07outcome_2nd 	 08switch_face_postiion 	 09FaceID_1st 	 10FaceID_2nd 	 11Switch_choice_target 	 12Outcome_1st 	 13Intention_1st 	 14Outcome_2nd 	 15Intention_2nd 	 RT1_face 	 Choice 	 Choice_face 	 Intention_choice 	 Outcome_choice 	 RT2_rating 	 Rate_dur 	 Reward 	 Count 	 Rons_dec 	 Rons_display 	 Rons_choice 	 Rons_jitter1 	 Rons_feed 	 Rons_rate 	 Rons_jitter2 	 Gameon 	 Jitter1 	 Jitter2 	 
12-May-2022	QPY	  2	  3	101	  1	  1	  1	  4	  2	  3	  1	  0	  0	  1	  0	  3	  1	  1	  2	  1	  2	  1	 3.089	  2	  3	  1	  2	 4.742	 0.000	  8	  4	 0.026	 3.126	 4.076	 4.576	 7.143	 8.643	14.626	19935.063	 2.568	 1.955	
12-May-2022	QPY	  1	  3	101	  1	  1	  2	  2	  1	  3	  1	  1	  0	  1	  0	  2	  1	  0	  1	  1	  1	  2	 2.434	  3	  1	  2	  1	 1.483	 4.713	  1	  3	14.643	17.092	17.109	17.126	17.176	18.676	23.393	19935.063	 2.642	 2.817	
12-May-2022	QPY	  4	  2	101	  1	  1	  3	  5	  2	  4	  1	  0	  0	  0	  1	  3	  4	  0	  1	  2	  2	  2	 1.101	  2	  3	  2	  1	 2.170	 3.146	  1	  3	26.209	27.326	28.309	28.809	30.342	31.842	34.992	19935.063	 1.538	 1.608	
12-May-2022	QPY	  1	  2	101	  1	  1	  4	  1	  1	  2	  1	  1	  1	  0	  0	  2	  3	  1	  1	  1	  2	  1	 1.101	  2	  3	  1	  2	 1.936	 5.322	  1	  5	36.592	37.709	38.692	39.192	41.542	43.042	48.376	19935.063	 2.340	 2.478	
12-May-2022	QPY	  1	  4	101	  1	  1	  5	  3	  1	  4	  1	  1	  0	  0	  0	  2	  4	  1	  1	  1	  2	  2	 1.250	  1	  2	  1	  1	 1.603	 2.897	  2	  5	50.842	52.109	53.092	53.592	55.726	57.226	60.142	19935.063	 2.137	 1.872	
12-May-2022	QPY	  4	  3	101	  1	  1	  6	  6	  3	  4	  0	  1	  0	  0	  1	  1	  4	  0	  1	  2	  2	  2	 1.395	  3	  1	  2	  1	 0.399	 1.567	 -1	  4	61.992	63.392	64.392	64.892	67.076	68.576	70.159	19935.063	 2.191	 2.098	
12-May-2022	QPY	  1	  3	101	  1	  1	  7	  2	  1	  3	  1	  1	  0	  1	  0	  2	  1	  0	  1	  1	  1	  2	 1.220	  3	  1	  2	  1	 0.440	 1.492	 -1	  4	72.242	73.476	74.459	74.959	77.792	79.292	80.792	19935.063	 2.836	 1.815	
12-May-2022	QPY	  2	  4	101	  1	  1	  8	  5	  2	  4	  1	  0	  0	  0	  0	  3	  4	  1	  2	  1	  1	  1	 1.964	  2	  3	  1	  2	 0.913	 1.863	  0	  4	82.609	84.576	85.576	86.076	88.076	89.576	91.459	19935.063	 2.000	 2.495	
12-May-2022	QPY	  3	  4	101	  1	  1	  9	  6	  3	  4	  0	  1	  0	  0	  0	  1	  4	  1	  2	  1	  2	  2	 1.083	  3	  1	  1	  2	 1.605	 2.203	  0	  2	93.926	95.025	96.009	96.509	98.275	99.775	101.992	19935.063	 1.758	 2.829	
12-May-2022	QPY	  3	  2	101	  1	  1	 10	  4	  2	  3	  1	  0	  0	  1	  1	  3	  1	  0	  2	  1	  1	  2	 1.374	  2	  3	  1	  2	 0.871	 1.485	  0	  3	104.809	106.192	107.175	107.675	109.725	111.225	112.725	19935.063	 2.041	 2.090	
12-May-2022	QPY	  4	  1	101	  1	  1	 11	  3	  1	  4	  1	  1	  0	  0	  1	  2	  4	  1	  1	  1	  2	  2	 1.271	  4	  4	  2	  2	 0.670	 2.302	 -3	  7	114.792	116.075	117.059	117.559	119.659	121.159	123.475	19935.063	 2.096	 2.466	
12-May-2022	QPY	  1	  2	101	  1	  1	 12	  1	  1	  2	  1	  1	  1	  0	  0	  2	  3	  0	  1	  1	  2	  1	 1.151	  1	  2	  1	  1	 0.739	 2.215	  3	  7	125.925	127.092	128.075	128.575	131.575	133.075	135.309	19935.063	 2.999	 2.767	
12-May-2022	QPY	  3	  2	101	  1	  1	 13	  4	  2	  3	  1	  0	  0	  1	  1	  3	  1	  1	  2	  1	  1	  2	 1.286	  3	  1	  2	  1	 0.979	 1.507	  0	  3	138.058	139.359	140.342	140.842	142.492	143.992	145.509	19935.063	 1.646	 1.657	
12-May-2022	QPY	  1	  4	101	  1	  1	 14	  3	  1	  4	  1	  1	  0	  0	  0	  2	  4	  1	  1	  1	  1	  1	 1.830	  1	  2	  1	  1	 0.811	 1.905	  3	  4	147.159	148.992	149.992	150.492	152.725	154.225	156.142	19935.063	 2.241	 1.912	
12-May-2022	QPY	  1	  3	101	  1	  1	 15	  2	  1	  3	  1	  1	  0	  1	  0	  2	  1	  0	  1	  1	  2	  1	 0.937	  1	  2	  1	  1	 0.721	 1.778	  3	  5	158.042	158.992	159.975	160.475	163.392	164.892	166.675	19935.063	 2.903	 2.212	
12-May-2022	QPY	  2	  4	101	  1	  1	 16	  5	  2	  4	  1	  0	  0	  0	  0	  3	  4	  0	  2	  1	  2	  2	 1.230	  2	  3	  1	  2	 1.000	 1.626	  0	  4	168.875	170.108	171.108	171.608	173.658	175.158	176.792	19935.063	 2.057	 2.430	
12-May-2022	QPY	  1	  3	101	  1	  1	 17	  2	  1	  3	  1	  1	  0	  1	  0	  2	  1	  1	  2	  2	  1	  2	 0.875	  1	  2	  2	  2	 1.242	 1.774	 -1	  2	179.225	180.108	181.092	181.592	184.258	185.758	187.542	19935.063	 2.656	 2.545	
12-May-2022	QPY	  2	  4	101	  1	  1	 18	  5	  2	  4	  1	  0	  0	  0	  0	  3	  4	  1	  2	  1	  2	  2	 1.075	  2	  3	  1	  2	 1.022	 3.112	  0	  5	190.075	191.158	192.142	192.642	194.308	195.808	198.925	19935.063	 1.665	 2.453	
12-May-2022	QPY	  3	  4	101	  1	  1	 19	  6	  3	  4	  0	  1	  0	  0	  0	  1	  4	  0	  1	  2	  1	  1	 1.884	  3	  1	  2	  1	 0.980	 2.452	 -1	  4	201.375	203.275	204.258	204.758	207.608	209.108	211.575	19935.063	 2.847	 1.580	
12-May-2022	QPY	  1	  2	101	  1	  1	 20	  1	  1	  2	  1	  1	  1	  0	  0	  2	  3	  1	  2	  2	  1	  2	 1.347	  1	  2	  2	  2	 1.262	 1.604	 -1	  2	213.142	214.491	215.491	215.991	218.308	219.808	221.425	19935.063	 2.326	 1.801	
12-May-2022	QPY	  1	  4	101	  1	  1	 21	  3	  1	  4	  1	  1	  0	  0	  0	  2	  4	  0	  2	  2	  2	  2	 0.966	  1	  2	  2	  2	 0.681	 2.566	 -1	  5	223.225	224.208	225.175	225.675	227.858	229.358	231.942	19935.063	 2.184	 2.194	
12-May-2022	QPY	  3	  4	101	  1	  1	 22	  6	  3	  4	  0	  1	  0	  0	  0	  1	  4	  1	  1	  2	  2	  2	 1.748	  4	  4	  2	  2	 0.323	 1.389	 -3	  5	234.125	235.892	236.875	237.375	239.958	241.441	242.841	19935.063	 2.575	 2.218	
12-May-2022	QPY	  2	  1	101	  1	  1	 23	  1	  1	  2	  1	  1	  1	  0	  1	  2	  3	  0	  1	  1	  2	  1	 1.298	  2	  3	  1	  2	 0.558	 1.018	  0	  3	245.058	246.375	247.358	247.858	249.758	251.258	252.291	19935.063	 1.899	 2.071	
12-May-2022	QPY	  3	  2	101	  1	  1	 24	  4	  2	  3	  1	  0	  0	  1	  1	  3	  1	  0	  1	  2	  1	  2	 1.313	  3	  1	  2	  1	 0.935	 1.533	  1	  3	254.341	255.658	256.658	257.158	259.841	261.341	262.891	19935.063	 2.692	 1.990	
12-May-2022	QPY	  4	  1	101	  1	  1	 25	  3	  1	  4	  1	  1	  0	  0	  1	  2	  4	  1	  1	  1	  1	  1	 1.623	  4	  4	  1	  1	 0.892	 1.205	  1	  2	264.875	266.508	267.491	267.991	270.608	272.108	273.325	19935.063	 2.607	 2.170	
12-May-2022	QPY	  2	  3	101	  1	  1	 26	  4	  2	  3	  1	  0	  0	  1	  0	  3	  1	  0	  2	  1	  1	  2	 1.476	  3	  1	  2	  1	 0.711	 1.456	  1	  3	275.475	276.958	277.958	278.458	280.408	281.908	283.375	19935.063	 1.963	 2.036	
12-May-2022	QPY	  4	  1	101	  1	  1	 27	  3	  1	  4	  1	  1	  0	  0	  1	  2	  4	  1	  1	  1	  2	  2	 1.292	  4	  4	  2	  2	 0.408	 1.270	 -3	  5	285.408	286.708	287.691	288.191	290.225	291.725	293.008	19935.063	 2.031	 2.639	
12-May-2022	QPY	  4	  3	101	  1	  1	 28	  6	  3	  4	  0	  1	  0	  0	  1	  1	  4	  1	  2	  1	  1	  1	 1.073	  4	  4	  1	  1	 1.575	 2.015	  0	  3	295.641	296.725	297.708	298.208	300.141	301.641	303.675	19935.063	 1.936	 2.118	
12-May-2022	QPY	  2	  3	101	  1	  1	 29	  4	  2	  3	  1	  0	  0	  1	  0	  3	  1	  0	  2	  1	  1	  2	 2.088	  3	  1	  2	  1	 1.461	 1.983	  1	  2	305.775	307.875	308.875	309.375	311.741	313.241	315.241	19935.063	 2.364	 2.121	
12-May-2022	QPY	  4	  2	101	  1	  1	 30	  5	  2	  4	  1	  0	  0	  0	  1	  3	  4	  0	  2	  1	  2	  2	 1.751	  4	  4	  2	  2	 0.742	 1.702	 -1	  4	317.341	319.108	320.091	320.591	322.624	324.124	325.841	19935.063	 2.034	 2.687	
12-May-2022	QPY	  1	  3	101	  1	  1	 31	  2	  1	  3	  1	  1	  0	  1	  0	  2	  1	  1	  1	  1	  1	  2	 1.485	  3	  1	  2	  1	 0.926	 1.740	  1	  5	328.508	330.008	330.991	331.491	333.908	335.408	337.158	19935.063	 2.405	 2.607	
12-May-2022	QPY	  2	  1	101	  1	  1	 32	  1	  1	  2	  1	  1	  1	  0	  1	  2	  3	  0	  1	  1	  1	  2	 1.191	  2	  3	  2	  1	 0.721	 1.449	  0	  3	339.741	340.941	341.941	342.441	344.991	346.491	347.958	19935.063	 2.556	 2.613	
12-May-2022	QPY	  3	  4	101	  1	  1	 33	  6	  3	  4	  0	  1	  0	  0	  0	  1	  4	  0	  1	  2	  2	  2	 1.091	  3	  1	  2	  1	 1.635	 2.273	  0	  2	350.558	351.658	352.641	353.141	355.257	356.758	359.041	19935.063	 2.108	 2.038	
12-May-2022	QPY	  4	  2	101	  1	  1	 34	  5	  2	  4	  1	  0	  0	  0	  1	  3	  4	  1	  2	  1	  2	  2	 1.546	  2	  3	  1	  2	 0.852	 1.192	  0	  2	361.074	362.624	363.608	364.108	365.974	367.474	368.691	19935.063	 1.868	 2.432	
12-May-2022	QPY	  1	  2	101	  1	  1	 35	  1	  1	  2	  1	  1	  1	  0	  0	  2	  3	  0	  2	  2	  2	  1	 1.378	  1	  2	  2	  2	 0.521	 1.083	 -3	  3	371.108	372.491	373.491	373.991	376.591	378.091	379.191	19935.063	 2.614	 2.459	
12-May-2022	QPY	  3	  1	101	  1	  1	 36	  2	  1	  3	  1	  1	  0	  1	  1	  2	  1	  1	  1	  1	  2	  1	 1.502	  1	  2	  1	  1	 1.370	 1.846	  0	  3	381.641	383.158	384.141	384.641	386.874	388.374	390.224	19935.063	 2.238	 2.079	
12-May-2022	QPY	  2	  4	101	  1	  1	 37	  5	  2	  4	  1	  0	  0	  0	  0	  3	  4	  0	  1	  2	  1	  1	 1.939	  4	  4	  1	  1	 0.883	 1.316	  0	  3	392.307	394.257	395.241	395.741	398.157	399.657	400.991	19935.063	 2.408	 1.587	
12-May-2022	QPY	  2	  3	101	  1	  1	 38	  4	  2	  3	  1	  0	  0	  1	  0	  3	  1	  1	  1	  2	  2	  1	 1.113	  3	  1	  1	  2	 0.402	 1.058	  0	  3	402.557	403.674	404.674	405.174	407.574	409.074	410.141	19935.063	 2.414	 2.359	
12-May-2022	QPY	  3	  1	101	  1	  1	 39	  2	  1	  3	  1	  1	  0	  1	  1	  2	  1	  0	  2	  2	  1	  2	 2.693	  3	  1	  2	  1	 1.824	 1.992	  1	  2	412.491	415.191	416.191	416.691	419.690	421.190	423.191	19935.063	 2.991	 2.509	
12-May-2022	QPY	  4	  2	101	  1	  1	 40	  5	  2	  4	  1	  0	  0	  0	  1	  3	  4	  1	  2	  1	  2	  2	 1.754	  2	  3	  1	  2	 0.633	 1.669	 -2	  2	425.691	427.457	428.441	428.941	430.874	432.357	434.041	19935.063	 1.928	 1.895	
12-May-2022	QPY	  3	  1	101	  1	  1	 41	  2	  1	  3	  1	  1	  0	  1	  1	  2	  1	  0	  1	  1	  1	  2	 1.146	  3	  1	  2	  1	 1.026	 2.111	  0	  2	435.924	437.074	438.074	438.574	440.824	442.324	444.441	19935.063	 2.247	 2.817	
12-May-2022	QPY	  1	  4	101	  1	  1	 42	  3	  1	  4	  1	  1	  0	  0	  0	  2	  4	  1	  2	  2	  2	  2	 2.253	  1	  2	  2	  2	 0.277	 0.767	 -3	  3	447.257	449.524	450.507	451.007	453.257	454.757	455.541	19935.063	 2.250	 2.645	
12-May-2022	QPY	  3	  4	101	  1	  1	 43	  6	  3	  4	  0	  1	  0	  0	  0	  1	  4	  0	  1	  2	  2	  2	 1.697	  3	  1	  2	  1	 2.099	 4.075	  1	  3	458.157	459.857	460.857	461.357	463.674	465.174	469.257	19935.063	 2.316	 2.584	
12-May-2022	QPY	  2	  3	101	  1	  1	 44	  4	  2	  3	  1	  0	  0	  1	  0	  3	  1	  0	  2	  1	  1	  2	 1.128	  3	  1	  2	  1	 1.475	 2.063	  0	  4	471.840	472.973	473.957	474.457	476.357	477.857	479.924	19935.063	 1.899	 2.371	
12-May-2022	QPY	  4	  1	101	  1	  1	 45	  3	  1	  4	  1	  1	  0	  0	  1	  2	  4	  1	  1	  1	  2	  2	 2.342	  4	  4	  2	  2	 0.858	 1.370	  0	  2	482.290	484.640	485.640	486.140	487.674	489.174	490.557	19935.063	 1.529	 2.319	
12-May-2022	QPY	  1	  2	101	  1	  1	 46	  1	  1	  2	  1	  1	  1	  0	  0	  2	  3	  0	  1	  1	  2	  1	 2.137	  2	  3	  1	  2	 0.805	 1.600	 -1	  3	492.857	495.007	495.990	496.490	498.890	500.390	502.007	19935.063	 2.389	 2.483	
12-May-2022	QPY	  3	  4	101	  1	  1	 47	  6	  3	  4	  0	  1	  0	  0	  0	  1	  4	  1	  1	  2	  2	  2	 0.749	  3	  1	  2	  1	 2.289	 2.289	  2	  1	504.474	505.240	506.224	506.724	508.757	510.257	512.557	19935.063	 2.035	 1.936	
12-May-2022	QPY	  1	  2	101	  1	  1	 48	  1	  1	  2	  1	  1	  1	  0	  0	  2	  3	  1	  1	  1	  2	  1	 2.152	  2	  3	  1	  2	 1.598	 1.598	 -1	  1	514.474	516.640	517.624	518.124	520.340	521.840	523.457	19935.063	 2.215	 2.231	
12-May-2022	QPY	  4	  3	101	  1	  1	 49	  6	  3	  4	  0	  1	  0	  0	  1	  1	  4	  0	  1	  2	  2	  2	 1.244	  3	  1	  2	  1	 1.038	 1.672	  1	  3	525.674	526.924	527.924	528.424	530.790	532.290	533.974	19935.063	 2.375	 1.737	
12-May-2022	QPY	  2	  1	101	  1	  1	 50	  1	  1	  2	  1	  1	  1	  0	  1	  2	  3	  1	  1	  1	  1	  2	 1.915	  1	  2	  1	  1	 1.064	 1.620	  0	  3	535.707	537.640	538.623	539.123	541.040	542.540	544.173	19935.063	 1.928	 2.510	
12-May-2022	QPY	  4	  3	101	  1	  1	 51	  6	  3	  4	  0	  1	  0	  0	  1	  1	  4	  1	  1	  2	  2	  2	 0.779	  3	  1	  2	  1	 0.587	 1.191	  0	  4	546.673	547.457	548.457	548.957	550.923	552.423	553.623	19935.063	 1.972	 2.919	
12-May-2022	QPY	  2	  1	101	  1	  1	 52	  1	  1	  2	  1	  1	  1	  0	  1	  2	  3	  0	  1	  1	  2	  1	 1.468	  1	  2	  1	  1	 0.412	 0.994	  2	  4	556.540	558.023	559.007	559.507	561.690	563.190	564.190	19935.063	 2.194	 2.570	
12-May-2022	QPY	  4	  2	101	  1	  1	 53	  5	  2	  4	  1	  0	  0	  0	  1	  3	  4	  1	  2	  1	  2	  2	 1.886	  4	  4	  2	  2	 0.241	 0.775	 -3	  3	566.757	568.657	569.640	570.140	572.423	573.923	574.707	19935.063	 2.284	 2.752	
12-May-2022	QPY	  3	  1	101	  1	  1	 54	  2	  1	  3	  1	  1	  0	  1	  1	  2	  1	  0	  2	  2	  2	  1	 0.563	  3	  1	  1	  2	 0.570	 1.178	  0	  3	577.457	578.023	579.023	579.523	581.890	583.390	584.573	19935.063	 2.372	 1.861	
12-May-2022	QPY	  2	  4	101	  1	  1	 55	  5	  2	  4	  1	  0	  0	  0	  0	  3	  4	  0	  2	  1	  1	  1	 1.795	  2	  3	  1	  2	 1.079	 1.364	 -2	  2	586.423	588.223	589.223	589.723	592.257	593.757	595.123	19935.063	 2.534	 1.615	
12-May-2022	QPY	  1	  4	101	  1	  1	 56	  3	  1	  4	  1	  1	  0	  0	  0	  2	  4	  1	  1	  1	  2	  2	 2.052	  1	  2	  1	  1	 0.769	 2.929	  0	  5	596.740	598.807	599.790	600.290	602.757	604.257	607.190	19935.063	 2.461	 2.503	
12-May-2022	QPY	  3	  2	101	  1	  1	 57	  4	  2	  3	  1	  0	  0	  1	  1	  3	  1	  0	  2	  1	  2	  1	 0.764	  3	  1	  1	  2	 1.001	 2.163	 -1	  4	609.690	610.457	611.456	611.956	613.723	615.223	617.390	19935.063	 1.774	 1.996	
12-May-2022	QPY	  3	  1	101	  1	  1	 58	  2	  1	  3	  1	  1	  0	  1	  1	  2	  1	  0	  1	  1	  1	  2	 1.199	  3	  1	  2	  1	 0.664	 2.594	  0	  3	619.373	620.590	621.573	622.073	624.840	626.340	628.940	19935.063	 2.762	 2.128	
12-May-2022	QPY	  4	  1	101	  1	  1	 59	  3	  1	  4	  1	  1	  0	  0	  1	  2	  4	  1	  1	  1	  2	  2	 1.849	  1	  2	  1	  1	 0.650	 1.594	  0	  3	631.056	632.923	633.906	634.406	636.440	637.940	639.540	19935.063	 2.027	 2.604	
12-May-2022	QPY	  2	  3	101	  1	  1	 60	  4	  2	  3	  1	  0	  0	  1	  0	  3	  1	  1	  2	  1	  1	  2	 1.654	  3	  1	  2	  1	 1.118	 1.884	  0	  4	642.140	643.806	644.790	645.290	647.556	649.056	650.956	19935.063	 2.263	 2.863	
12-May-2022	QPY	  3	  1	101	  1	  1	 61	  2	  1	  3	  1	  1	  0	  1	  1	  2	  1	  0	  1	  1	  1	  2	 1.202	  3	  1	  2	  1	 0.876	 1.226	  0	  3	653.806	655.023	656.006	656.506	659.090	660.590	661.823	19935.063	 2.585	 1.960	
12-May-2022	QPY	  2	  1	101	  1	  1	 62	  1	  1	  2	  1	  1	  1	  0	  1	  2	  3	  1	  2	  2	  2	  1	 2.833	  2	  3	  1	  2	 0.628	 1.950	 -1	  5	663.773	666.623	667.606	668.106	670.590	672.090	674.056	19935.063	 2.479	 2.029	
12-May-2022	QPY	  4	  3	101	  1	  1	 63	  6	  3	  4	  0	  1	  0	  0	  1	  1	  4	  0	  2	  1	  2	  2	 2.039	  3	  1	  1	  2	 1.214	 2.112	 -1	  2	676.073	678.123	679.106	679.606	681.606	683.106	685.223	19935.063	 1.994	 2.485	
12-May-2022	QPY	  2	  1	101	  1	  1	 64	  1	  1	  2	  1	  1	  1	  0	  1	  2	  3	  1	  1	  1	  2	  1	 2.310	  1	  2	  1	  1	 0.759	 1.677	  1	  3	687.689	690.006	691.006	691.506	693.839	695.339	697.023	19935.063	 2.327	 2.187	
12-May-2022	QPY	  2	  4	101	  1	  1	 65	  5	  2	  4	  1	  0	  0	  0	  0	  3	  4	  1	  2	  1	  2	  2	 2.780	  4	  4	  2	  2	 0.530	 2.316	 -3	  6	699.189	701.989	702.973	703.473	705.289	706.789	709.123	19935.063	 1.807	 1.993	
12-May-2022	QPY	  1	  3	101	  1	  1	 66	  2	  1	  3	  1	  1	  0	  1	  0	  2	  1	  0	  1	  1	  1	  2	 2.112	  3	  1	  2	  1	 0.649	 1.543	  0	  3	711.089	713.206	714.206	714.706	716.323	717.823	719.373	19935.063	 1.620	 2.353	
12-May-2022	QPY	  4	  2	101	  1	  1	 67	  5	  2	  4	  1	  0	  0	  0	  1	  3	  4	  1	  1	  2	  2	  2	 2.073	  4	  4	  2	  2	 0.250	 0.687	 -3	  2	721.723	723.806	724.789	725.289	727.939	729.439	730.139	19935.063	 2.637	 2.148	
12-May-2022	QPY	  4	  1	101	  1	  1	 68	  3	  1	  4	  1	  1	  0	  0	  1	  2	  4	  0	  1	  1	  2	  2	 0.835	  1	  2	  1	  1	 1.094	 1.094	  1	  1	732.272	733.122	734.106	734.606	736.206	737.706	738.806	19935.063	 1.605	 1.581	
12-May-2022	QPY	  3	  2	101	  1	  1	 69	  4	  2	  3	  1	  0	  0	  1	  1	  3	  1	  0	  2	  1	  1	  2	 0.817	  3	  1	  2	  1	 0.286	 1.134	  1	  4	740.389	741.223	742.206	742.706	745.323	746.806	747.956	19935.063	 2.615	 2.117	
12-May-2022	QPY	  1	  4	101	  1	  1	 70	  3	  1	  4	  1	  1	  0	  0	  0	  2	  4	  1	  2	  2	  1	  1	 1.263	  1	  2	  2	  2	 0.814	 1.686	 -1	  3	750.073	751.339	752.323	752.823	754.756	756.256	757.956	19935.063	 1.921	 1.982	
12-May-2022	QPY	  4	  3	101	  1	  1	 71	  6	  3	  4	  0	  1	  0	  0	  1	  1	  4	  1	  1	  2	  1	  1	 1.059	  3	  1	  2	  1	 1.893	 2.139	  1	  2	759.922	760.989	761.972	762.472	765.222	766.722	768.872	19935.063	 2.753	 2.123	
12-May-2022	QPY	  3	  2	101	  1	  1	 72	  4	  2	  3	  1	  0	  0	  1	  1	  3	  1	  0	  1	  2	  1	  2	 1.057	  3	  1	  2	  1	 0.741	 1.024	  1	  2	770.989	772.055	773.055	773.556	776.072	777.572	778.606	19935.063	 2.530	 2.896	
12-May-2022	QPY	  1	  3	101	  1	  2	  1	  2	  1	  3	  1	  1	  0	  1	  0	  2	  1	  1	  2	  2	  1	  2	 1.999	  1	  2	  2	  2	 1.163	 1.377	 -1	  2	 0.016	 2.033	 2.983	 3.483	 5.883	 7.383	 8.766	20736.119	 2.404	 2.127	
12-May-2022	QPY	  1	  4	101	  1	  2	  2	  3	  1	  4	  1	  1	  0	  0	  0	  2	  4	  1	  2	  2	  2	  2	 1.462	  1	  2	  2	  2	 0.992	 2.260	 -1	  3	10.899	12.366	13.349	13.849	15.816	17.316	19.583	20736.119	 1.960	 1.704	
12-May-2022	QPY	  3	  2	101	  1	  2	  3	  4	  2	  3	  1	  0	  0	  1	  1	  3	  1	  0	  2	  1	  1	  2	 2.187	  3	  1	  2	  1	 1.758	 1.758	  0	  1	21.283	23.483	24.466	24.966	27.666	29.166	30.933	20736.119	 2.697	 1.737	
12-May-2022	QPY	  1	  4	101	  1	  2	  4	  3	  1	  4	  1	  1	  0	  0	  0	  2	  4	  0	  1	  1	  1	  1	 3.086	  1	  2	  1	  1	 0.776	 1.128	  1	  2	32.649	35.749	36.749	37.249	39.549	41.049	42.183	20736.119	 2.312	 2.620	
12-May-2022	QPY	  2	  3	101	  1	  2	  5	  4	  2	  3	  1	  0	  0	  1	  0	  3	  1	  1	  1	  2	  1	  2	 1.116	  3	  1	  2	  1	 0.643	 1.248	  1	  3	44.799	45.933	46.916	47.416	49.566	51.066	52.333	20736.119	 2.150	 1.534	
12-May-2022	QPY	  4	  3	101	  1	  2	  6	  6	  3	  4	  0	  1	  0	  0	  1	  1	  4	  0	  1	  2	  2	  2	 0.780	  3	  1	  2	  1	 0.640	 1.028	  1	  2	53.849	54.633	55.632	56.133	58.049	59.549	60.582	20736.119	 1.910	 1.989	
12-May-2022	QPY	  4	  2	101	  1	  2	  7	  5	  2	  4	  1	  0	  0	  0	  1	  3	  4	  1	  1	  2	  1	  1	 1.902	  4	  4	  1	  1	 0.851	 1.827	  0	  5	62.566	64.482	65.466	65.966	68.666	70.166	71.999	20736.119	 2.703	 2.817	
12-May-2022	QPY	  1	  3	101	  1	  2	  8	  2	  1	  3	  1	  1	  0	  1	  0	  2	  1	  1	  1	  1	  1	  2	 0.840	  3	  1	  2	  1	 0.876	 1.102	  0	  2	74.816	75.666	76.649	77.149	79.649	81.149	82.266	20736.119	 2.505	 1.779	
12-May-2022	QPY	  1	  2	101	  1	  2	  9	  1	  1	  2	  1	  1	  1	  0	  0	  2	  3	  0	  1	  1	  1	  2	 1.681	  1	  2	  1	  1	 0.387	 1.049	  1	  3	84.032	85.732	86.716	87.216	89.632	91.132	92.199	20736.119	 2.416	 2.623	
12-May-2022	QPY	  3	  4	101	  1	  2	 10	  6	  3	  4	  0	  1	  0	  0	  0	  1	  4	  1	  1	  2	  2	  2	 0.844	  3	  1	  2	  1	 0.690	 2.934	  1	  7	94.799	95.649	96.649	97.149	99.416	100.916	103.866	20736.119	 2.268	 2.936	
12-May-2022	QPY	  1	  2	101	  1	  2	 11	  1	  1	  2	  1	  1	  1	  0	  0	  2	  3	  0	  1	  1	  2	  1	 1.245	  1	  2	  1	  1	 0.670	 1.100	  0	  3	106.782	108.032	109.032	109.532	111.866	113.366	114.482	20736.119	 2.341	 2.383	
12-May-2022	QPY	  2	  4	101	  1	  2	 12	  5	  2	  4	  1	  0	  0	  0	  0	  3	  4	  0	  2	  1	  2	  2	 1.803	  2	  3	  1	  2	 0.919	 1.649	 -3	  3	116.849	118.666	119.666	120.166	121.882	123.382	125.049	20736.119	 1.726	 2.286	
12-May-2022	QPY	  4	  1	101	  1	  2	 13	  3	  1	  4	  1	  1	  0	  0	  1	  2	  4	  1	  1	  1	  2	  2	 1.173	  1	  2	  1	  1	 0.302	 0.972	  1	  2	127.316	128.499	129.499	129.999	131.966	133.466	134.449	20736.119	 1.969	 2.555	
12-May-2022	QPY	  3	  2	101	  1	  2	 14	  4	  2	  3	  1	  0	  0	  1	  1	  3	  1	  0	  2	  1	  1	  2	 1.045	  3	  1	  2	  1	 0.468	 2.298	  1	  3	136.982	138.032	139.032	139.532	141.115	142.615	144.932	20736.119	 1.576	 2.587	
12-May-2022	QPY	  1	  2	101	  1	  2	 15	  1	  1	  2	  1	  1	  1	  0	  0	  2	  3	  1	  1	  1	  2	  1	 1.950	  1	  2	  1	  1	 0.618	 1.384	  1	  4	147.499	149.465	150.449	150.949	153.015	154.515	155.915	20736.119	 2.069	 2.497	
12-May-2022	QPY	  4	  3	101	  1	  2	 16	  6	  3	  4	  0	  1	  0	  0	  1	  1	  4	  0	  2	  1	  2	  2	 1.039	  3	  1	  1	  2	 1.404	 4.454	 -1	  5	158.399	159.449	160.432	160.932	163.265	164.765	169.232	20736.119	 2.332	 2.376	
12-May-2022	QPY	  4	  1	101	  1	  2	 17	  3	  1	  4	  1	  1	  0	  0	  1	  2	  4	  0	  1	  1	  2	  2	 1.785	  1	  2	  1	  1	 0.198	 1.132	  1	  5	171.599	173.399	174.382	174.882	177.265	178.765	179.915	20736.119	 2.391	 1.898	
12-May-2022	QPY	  1	  3	101	  1	  2	 18	  2	  1	  3	  1	  1	  0	  1	  0	  2	  1	  1	  1	  1	  2	  1	 0.901	  3	  1	  1	  2	 0.258	 0.972	 -1	  4	181.799	182.715	183.699	184.199	186.015	187.515	188.499	20736.119	 1.819	 2.237	
12-May-2022	QPY	  4	  2	101	  1	  2	 19	  5	  2	  4	  1	  0	  0	  0	  1	  3	  4	  1	  2	  1	  2	  2	 1.218	  2	  3	  1	  2	 0.102	 0.810	 -3	  3	190.732	191.965	192.949	193.449	195.015	196.515	197.332	20736.119	 1.565	 2.457	
12-May-2022	QPY	  3	  1	101	  1	  2	 20	  2	  1	  3	  1	  1	  0	  1	  1	  2	  1	  0	  1	  1	  1	  2	 0.789	  3	  1	  2	  1	 0.602	 1.497	  1	  3	199.782	200.582	201.565	202.065	204.132	205.632	207.132	20736.119	 2.067	 2.924	
12-May-2022	QPY	  4	  2	101	  1	  2	 21	  5	  2	  4	  1	  0	  0	  0	  1	  3	  4	  1	  2	  1	  2	  2	 2.062	  4	  4	  2	  2	 1.138	 1.138	 -3	  1	210.065	212.132	213.115	213.615	216.065	217.565	218.715	20736.119	 2.444	 1.522	
12-May-2022	QPY	  1	  2	101	  1	  2	 22	  1	  1	  2	  1	  1	  1	  0	  0	  2	  3	  0	  2	  2	  2	  1	 1.526	  1	  2	  2	  2	 0.351	 0.785	 -1	  3	220.232	221.765	222.748	223.248	225.682	227.182	227.982	20736.119	 2.431	 1.846	
12-May-2022	QPY	  4	  3	101	  1	  2	 23	  6	  3	  4	  0	  1	  0	  0	  1	  1	  4	  0	  1	  2	  1	  1	 0.924	  3	  1	  2	  1	 0.886	 1.398	  1	  3	229.815	230.748	231.732	232.232	234.665	236.165	237.582	20736.119	 2.426	 1.996	
12-May-2022	QPY	  3	  2	101	  1	  2	 24	  4	  2	  3	  1	  0	  0	  1	  1	  3	  1	  1	  2	  1	  2	  1	 1.583	  3	  1	  1	  2	 1.243	 1.489	  0	  2	239.548	241.148	242.132	242.632	245.048	246.548	248.048	20736.119	 2.412	 2.204	
12-May-2022	QPY	  2	  1	101	  1	  2	 25	  1	  1	  2	  1	  1	  1	  0	  1	  2	  3	  0	  2	  2	  1	  2	 1.995	  1	  2	  2	  2	 0.520	 1.987	 -1	  4	250.248	252.248	253.232	253.732	255.832	257.332	259.332	20736.119	 2.094	 2.133	
12-May-2022	QPY	  4	  3	101	  1	  2	 26	  6	  3	  4	  0	  1	  0	  0	  1	  1	  4	  1	  1	  2	  2	  2	 0.655	  3	  1	  2	  1	 0.813	 2.699	  1	  3	261.448	262.115	263.115	263.615	266.048	267.548	270.265	20736.119	 2.444	 2.261	
12-May-2022	QPY	  3	  1	101	  1	  2	 27	  2	  1	  3	  1	  1	  0	  1	  1	  2	  1	  0	  2	  2	  2	  1	 0.908	  3	  1	  1	  2	 0.418	 1.026	  0	  3	272.515	273.431	274.415	274.915	277.215	278.715	279.748	20736.119	 2.299	 1.983	
12-May-2022	QPY	  4	  2	101	  1	  2	 28	  5	  2	  4	  1	  0	  0	  0	  1	  3	  4	  1	  1	  2	  2	  2	 3.012	  4	  4	  2	  2	 1.467	 2.089	 -3	  3	281.732	284.748	285.748	286.248	289.098	290.598	292.698	20736.119	 2.857	 2.510	
12-May-2022	QPY	  4	  1	101	  1	  2	 29	  3	  1	  4	  1	  1	  0	  0	  1	  2	  4	  1	  2	  2	  2	  2	 1.643	  1	  2	  2	  2	 1.600	 1.852	 -2	  2	295.198	296.848	297.848	298.348	300.731	302.231	304.098	20736.119	 2.388	 2.603	
12-May-2022	QPY	  2	  3	101	  1	  2	 30	  4	  2	  3	  1	  0	  0	  1	  0	  3	  1	  0	  2	  1	  2	  1	 1.078	  3	  1	  1	  2	 1.982	 3.417	  0	  2	306.681	307.765	308.765	309.265	311.615	313.114	316.548	20736.119	 2.348	 2.572	
12-May-2022	QPY	  4	  3	101	  1	  2	 31	  6	  3	  4	  0	  1	  0	  0	  1	  1	  4	  0	  1	  2	  2	  2	 0.997	  3	  1	  2	  1	 0.688	 0.994	  0	  2	319.098	320.098	321.098	321.598	323.781	325.281	326.281	20736.119	 2.192	 2.442	
12-May-2022	QPY	  2	  4	101	  1	  2	 32	  5	  2	  4	  1	  0	  0	  0	  0	  3	  4	  1	  2	  1	  2	  2	 2.093	  4	  4	  2	  2	 0.199	 0.801	 -3	  4	328.731	330.831	331.815	332.315	334.498	335.998	336.815	20736.119	 2.182	 2.140	
12-May-2022	QPY	  1	  3	101	  1	  2	 33	  2	  1	  3	  1	  1	  0	  1	  0	  2	  1	  1	  1	  1	  1	  2	 1.353	  3	  1	  2	  1	 1.288	 1.738	  0	  3	338.948	340.315	341.298	341.798	343.765	345.264	347.015	20736.119	 1.971	 2.069	
12-May-2022	QPY	  3	  2	101	  1	  2	 34	  4	  2	  3	  1	  0	  0	  1	  1	  3	  1	  0	  2	  1	  1	  2	 1.217	  3	  1	  2	  1	 0.273	 1.175	  1	  4	349.065	350.298	351.281	351.781	354.298	355.798	356.981	20736.119	 2.515	 2.652	
12-May-2022	QPY	  1	  4	101	  1	  2	 35	  3	  1	  4	  1	  1	  0	  0	  0	  2	  4	  0	  1	  1	  1	  1	 2.232	  1	  2	  1	  1	 0.739	 2.469	  0	  4	359.631	361.881	362.864	363.364	365.714	367.214	369.698	20736.119	 2.355	 2.414	
12-May-2022	QPY	  2	  1	101	  1	  2	 36	  1	  1	  2	  1	  1	  1	  0	  1	  2	  3	  1	  1	  1	  2	  1	 0.922	  1	  2	  1	  1	 0.781	 1.811	  1	  3	372.098	373.031	374.014	374.514	376.998	378.498	380.314	20736.119	 2.477	 2.571	
12-May-2022	QPY	  2	  4	101	  1	  2	 37	  5	  2	  4	  1	  0	  0	  0	  0	  3	  4	  0	  2	  1	  1	  1	 2.854	  2	  3	  1	  2	 0.373	 2.793	 -2	  6	382.881	385.748	386.731	387.231	389.514	391.014	393.814	20736.119	 2.281	 1.791	
12-May-2022	QPY	  3	  1	101	  1	  2	 38	  2	  1	  3	  1	  1	  0	  1	  1	  2	  1	  0	  1	  1	  1	  2	 1.895	  3	  1	  2	  1	 0.550	 0.550	  0	  1	395.598	397.498	398.498	398.998	401.331	402.831	403.398	20736.119	 2.331	 2.356	
12-May-2022	QPY	  3	  4	101	  1	  2	 39	  6	  3	  4	  0	  1	  0	  0	  0	  1	  4	  1	  2	  1	  1	  1	 0.796	  3	  1	  1	  2	 0.598	 1.686	 -1	  5	405.731	406.531	407.531	408.031	410.714	412.197	413.898	20736.119	 2.678	 2.290	
12-May-2022	QPY	  1	  2	101	  1	  2	 40	  1	  1	  2	  1	  1	  1	  0	  0	  2	  3	  1	  1	  1	  2	  1	 2.010	  1	  2	  1	  1	 0.333	 1.931	  0	  6	416.181	418.197	419.197	419.698	422.014	423.514	425.464	20736.119	 2.328	 2.349	
12-May-2022	QPY	  1	  4	101	  1	  2	 41	  3	  1	  4	  1	  1	  0	  0	  0	  2	  4	  0	  1	  1	  2	  2	 1.262	  1	  2	  1	  1	 0.596	 2.708	  0	  4	427.798	429.064	430.064	430.564	432.781	434.281	436.997	20736.119	 2.220	 2.557	
12-May-2022	QPY	  2	  3	101	  1	  2	 42	  4	  2	  3	  1	  0	  0	  1	  0	  3	  1	  0	  1	  2	  1	  2	 1.953	  3	  1	  2	  1	 0.686	 1.298	  0	  4	439.547	441.514	442.497	442.997	445.281	446.781	448.097	20736.119	 2.279	 2.645	
12-May-2022	QPY	  4	  1	101	  1	  2	 43	  3	  1	  4	  1	  1	  0	  0	  1	  2	  4	  1	  1	  1	  2	  2	 1.418	  1	  2	  1	  1	 1.568	 2.464	  1	  3	450.731	452.164	453.147	453.647	455.931	457.431	459.897	20736.119	 2.294	 1.674	
12-May-2022	QPY	  2	  3	101	  1	  2	 44	  4	  2	  3	  1	  0	  0	  1	  0	  3	  1	  0	  2	  1	  1	  2	 1.482	  3	  1	  2	  1	 0.682	 1.050	  0	  2	461.581	463.081	464.064	464.564	466.347	467.847	468.914	20736.119	 1.798	 2.308	
12-May-2022	QPY	  3	  4	101	  1	  2	 45	  6	  3	  4	  0	  1	  0	  0	  0	  1	  4	  1	  1	  2	  2	  2	 0.717	  3	  1	  2	  1	 0.515	 1.181	  0	  4	471.214	471.947	472.931	473.431	475.664	477.164	478.364	20736.119	 2.240	 2.421	
12-May-2022	QPY	  2	  1	101	  1	  2	 46	  1	  1	  2	  1	  1	  1	  0	  1	  2	  3	  0	  1	  1	  2	  1	 0.917	  1	  2	  1	  1	 0.723	 2.008	  1	  4	480.764	481.697	482.681	483.181	485.947	487.447	489.464	20736.119	 2.751	 1.885	
12-May-2022	QPY	  3	  1	101	  1	  2	 47	  2	  1	  3	  1	  1	  0	  1	  1	  2	  1	  1	  1	  1	  1	  2	 0.923	  3	  1	  2	  1	 1.290	 1.290	  0	  1	491.331	492.264	493.247	493.747	495.680	497.180	498.481	20736.119	 1.925	 2.642	
12-May-2022	QPY	  2	  4	101	  1	  2	 48	  5	  2	  4	  1	  0	  0	  0	  0	  3	  4	  1	  2	  1	  2	  2	 2.489	  4	  4	  2	  2	 0.166	 0.780	 -3	  2	501.114	503.614	504.597	505.097	507.381	508.881	509.664	20736.119	 2.271	 2.337	
12-May-2022	QPY	  3	  4	101	  1	  2	 49	  6	  3	  4	  0	  1	  0	  0	  0	  1	  4	  0	  1	  2	  2	  2	 1.219	  3	  1	  2	  1	 0.342	 1.156	  0	  4	511.997	513.230	514.214	514.714	516.547	518.047	519.214	20736.119	 1.843	 2.236	
12-May-2022	QPY	  2	  1	101	  1	  2	 50	  1	  1	  2	  1	  1	  1	  0	  1	  2	  3	  0	  1	  1	  2	  1	 1.704	  1	  2	  1	  1	 0.844	 0.844	  2	  1	521.447	523.164	524.147	524.647	526.347	527.847	528.697	20736.119	 1.700	 2.342	
12-May-2022	QPY	  3	  1	101	  1	  2	 51	  2	  1	  3	  1	  1	  0	  1	  1	  2	  1	  1	  2	  2	  1	  2	 1.471	  3	  1	  2	  1	 0.607	 2.557	  1	  5	531.030	532.514	533.497	533.997	536.163	537.663	540.230	20736.119	 2.165	 2.343	
12-May-2022	QPY	  3	  4	101	  1	  2	 52	  6	  3	  4	  0	  1	  0	  0	  0	  1	  4	  1	  2	  1	  2	  2	 1.255	  3	  1	  1	  2	 0.577	 1.481	 -1	  5	542.564	543.830	544.830	545.330	547.130	548.630	550.114	20736.119	 1.803	 2.021	
12-May-2022	QPY	  2	  1	101	  1	  2	 53	  1	  1	  2	  1	  1	  1	  0	  1	  2	  3	  0	  2	  2	  2	  1	 1.230	  1	  2	  2	  2	 0.683	 1.547	 -1	  5	552.130	553.364	554.364	554.864	557.230	558.730	560.280	20736.119	 2.373	 2.248	
12-May-2022	QPY	  4	  2	101	  1	  2	 54	  5	  2	  4	  1	  0	  0	  0	  1	  3	  4	  1	  2	  1	  1	  1	 2.361	  2	  3	  1	  2	 0.495	 1.917	  0	  2	562.530	564.897	565.880	566.380	569.264	570.764	572.697	20736.119	 2.875	 1.670	
12-May-2022	QPY	  1	  4	101	  1	  2	 55	  3	  1	  4	  1	  1	  0	  0	  0	  2	  4	  0	  1	  1	  2	  2	 2.370	  1	  2	  1	  1	 1.052	 1.592	  3	  2	574.347	576.730	577.714	578.214	580.197	581.697	583.297	20736.119	 1.970	 2.712	
12-May-2022	QPY	  3	  2	101	  1	  2	 56	  4	  2	  3	  1	  0	  0	  1	  1	  3	  1	  0	  2	  1	  1	  2	 1.400	  3	  1	  2	  1	 1.566	 1.770	  1	  2	585.997	587.413	588.397	588.897	591.847	593.347	595.130	20736.119	 2.960	 1.929	
12-May-2022	QPY	  1	  3	101	  1	  2	 57	  2	  1	  3	  1	  1	  0	  1	  0	  2	  1	  1	  1	  1	  2	  1	 1.072	  3	  1	  1	  2	 0.759	 0.969	 -1	  2	597.047	598.130	599.130	599.630	601.863	603.363	604.347	20736.119	 2.240	 2.951	
12-May-2022	QPY	  4	  1	101	  1	  2	 58	  3	  1	  4	  1	  1	  0	  0	  1	  2	  4	  0	  2	  2	  1	  1	 1.157	  1	  2	  2	  2	 1.231	 1.453	 -1	  2	607.280	608.447	609.447	609.947	612.163	613.663	615.130	20736.119	 2.220	 1.781	
12-May-2022	QPY	  3	  2	101	  1	  2	 59	  4	  2	  3	  1	  0	  0	  1	  1	  3	  1	  1	  2	  1	  1	  2	 0.990	  3	  1	  2	  1	 0.194	 1.212	  0	  5	616.897	617.897	618.880	619.380	621.447	622.947	624.163	20736.119	 2.059	 1.678	
12-May-2022	QPY	  2	  4	101	  1	  2	 60	  5	  2	  4	  1	  0	  0	  0	  0	  3	  4	  1	  1	  2	  2	  2	 2.335	  2	  3	  2	  1	 0.727	 1.573	  1	  5	625.830	628.180	629.163	629.663	631.913	633.413	634.997	20736.119	 2.253	 2.627	
12-May-2022	QPY	  4	  1	101	  1	  2	 61	  3	  1	  4	  1	  1	  0	  0	  1	  2	  4	  0	  1	  1	  2	  2	 2.329	  4	  4	  2	  2	 0.204	 1.138	 -3	  4	637.630	639.963	640.947	641.447	644.097	645.597	646.747	20736.119	 2.648	 1.922	
12-May-2022	QPY	  3	  1	101	  1	  2	 62	  2	  1	  3	  1	  1	  0	  1	  1	  2	  1	  0	  1	  1	  1	  2	 1.054	  3	  1	  2	  1	 0.888	 1.222	  1	  2	648.663	649.730	650.713	651.213	653.397	654.897	656.130	20736.119	 2.181	 2.400	
12-May-2022	QPY	  4	  2	101	  1	  2	 63	  5	  2	  4	  1	  0	  0	  0	  1	  3	  4	  1	  2	  1	  2	  2	 2.709	  4	  4	  2	  2	 0.233	 0.675	 -3	  2	658.513	661.230	662.230	662.730	665.230	666.730	667.413	20736.119	 2.505	 1.790	
12-May-2022	QPY	  2	  3	101	  1	  2	 64	  4	  2	  3	  1	  0	  0	  1	  0	  3	  1	  0	  1	  2	  2	  1	 1.158	  3	  1	  1	  2	 0.469	 1.327	 -1	  4	669.196	670.363	671.346	671.846	673.730	675.230	676.563	20736.119	 1.873	 2.852	
12-May-2022	QPY	  1	  4	101	  1	  2	 65	  3	  1	  4	  1	  1	  0	  0	  0	  2	  4	  1	  1	  1	  2	  2	 1.404	  1	  2	  1	  1	 0.477	 0.879	  1	  2	679.396	680.813	681.813	682.313	685.280	686.780	687.663	20736.119	 2.975	 2.542	
12-May-2022	QPY	  2	  3	101	  1	  2	 66	  4	  2	  3	  1	  0	  0	  1	  0	  3	  1	  1	  2	  1	  1	  2	 1.064	  3	  1	  2	  1	 0.699	 1.019	  1	  2	690.213	691.280	692.263	692.763	694.680	696.180	697.213	20736.119	 1.909	 2.172	
12-May-2022	QPY	  1	  3	101	  1	  2	 67	  2	  1	  3	  1	  1	  0	  1	  0	  2	  1	  0	  1	  1	  1	  2	 1.420	  3	  1	  2	  1	 0.824	 1.120	  1	  2	699.363	700.796	701.796	702.296	704.863	706.363	707.496	20736.119	 2.575	 2.320	
12-May-2022	QPY	  2	  4	101	  1	  2	 68	  5	  2	  4	  1	  0	  0	  0	  0	  3	  4	  1	  2	  1	  2	  2	 1.685	  2	  3	  1	  2	 0.971	 1.645	  0	  2	709.796	711.496	712.480	712.980	715.330	716.830	718.480	20736.119	 2.346	 2.041	
12-May-2022	QPY	  2	  1	101	  1	  2	 69	  1	  1	  2	  1	  1	  1	  0	  1	  2	  3	  0	  1	  1	  1	  2	 1.152	  1	  2	  1	  1	 0.401	 1.002	  1	  3	720.513	721.680	722.663	723.163	724.996	726.496	727.513	20736.119	 1.825	 1.783	
12-May-2022	QPY	  3	  4	101	  1	  2	 70	  6	  3	  4	  0	  1	  0	  0	  0	  1	  4	  1	  1	  2	  1	  1	 1.041	  3	  1	  2	  1	 0.959	 1.222	  1	  2	729.280	730.330	731.329	731.830	734.129	735.629	736.863	20736.119	 2.306	 2.029	
12-May-2022	QPY	  1	  2	101	  1	  2	 71	  1	  1	  2	  1	  1	  1	  0	  0	  2	  3	  0	  1	  1	  2	  1	 1.961	  1	  2	  1	  1	 0.333	 1.203	  2	  4	738.879	740.846	741.846	742.346	744.329	745.829	747.046	20736.119	 1.987	 1.689	
12-May-2022	QPY	  4	  3	101	  1	  2	 72	  6	  3	  4	  0	  1	  0	  0	  1	  1	  4	  1	  1	  2	  2	  2	 0.823	  3	  1	  2	  1	 0.667	 1.077	  1	  2	748.713	749.546	750.546	751.046	753.046	754.546	755.629	20736.119	 1.997	 2.682	
